File: examples/ConvertMenu/PRF/LaB6/LaB6-XRD.dat
10.0     190
10.1     180
10.2     130
10.30001 110
10.40001 150
10.50001 240
10.60001 140
10.70002 110
10.80002 180
10.90002 180
11.00002 100
11.10003 100
11.20003 170
11.30003 150
11.40003 130
11.50003 110
11.60004 180
11.70004 130
11.80004 80
11.90004 120
12.00005 100
12.10005 90
12.20005 100
12.30005 220
12.40005 130
12.50006 60
12.60006 110
12.70006 60
12.80006 120
12.90007 140
13.00007 20
13.10007 70
13.20007 70
13.30008 40
13.40008 70
13.50008 80
13.60008 130
13.70008 110
13.80009 50
13.90009 70
14.00009 50
14.10009 90
14.2001  80
14.3001  120
14.4001  50
14.5001  90
14.60011 100
14.70011 80
14.80011 10
14.90011 60
15.00011 90
15.10012 100
15.20012 70
15.30012 90
15.40012 60
15.50013 100
15.60013 110
15.70013 160
15.80013 110
15.90014 90
16.00014 90
16.10014 60
16.20014 70
16.30014 80
16.40015 40
16.50015 110
16.60015 150
16.70015 130
16.80016 70
16.90016 90
17.00016 40
17.10016 80
17.20016 80
17.30017 110
17.40017 80
17.50017 80
17.60017 70
17.70018 40
17.80018 30
17.90018 80
18.00018 100
18.10019 70
18.20019 70
18.30019 100
18.40019 30
18.50019 80
18.6002  70
18.7002  50
18.8002  50
18.9002  150
19.00021 80
19.10021 50
19.20021 40
19.30021 50
19.40022 60
19.50022 30
19.60022 20
19.70022 40
19.80022 20
19.90023 70
20.00023 70
20.10023 20
20.20023 70
20.30024 40
20.40024 30
20.50024 120
20.60024 80
20.70024 70
20.80025 90
20.90025 100
21.00025 110
21.10025 480
21.20026 1010
21.30026 2330
21.40026 10540
21.50026 2990
21.60027 430
21.70027 220
21.80027 130
21.90027 80
22.00027 50
22.10028 70
22.20028 110
22.30028 30
22.40028 70
22.50029 90
22.60029 70
22.70029 40
22.80029 60
22.9003  60
23.0003  70
23.1003  40
23.2003  40
23.3003  50
23.40031 50
23.50031 70
23.60031 50
23.70031 90
23.80032 20
23.90032 90
24.00032 60
24.10032 50
24.20033 40
24.30033 30
24.40033 30
24.50033 30
24.60033 80
24.70034 40
24.80034 20
24.90034 60
25.00034 20
25.10035 40
25.20035 70
25.30035 20
25.40035 90
25.50035 40
25.60036 40
25.70036 60
25.80036 70
25.90036 70
26.00037 20
26.10037 70
26.20037 60
26.30037 50
26.40038 40
26.50038 60
26.60038 80
26.70038 60
26.80038 50
26.90039 60
27.00039 50
27.10039 50
27.20039 80
27.3004  50
27.4004  130
27.5004  50
27.6004  40
27.70041 110
27.80041 70
27.90041 50
28.00041 90
28.10041 80
28.20042 100
28.30042 50
28.40042 40
28.50042 110
28.60043 30
28.70043 70
28.80043 40
28.90043 30
29.00043 80
29.10044 70
29.20044 70
29.30044 50
29.40044 50
29.50045 80
29.60045 110
29.70045 40
29.80045 80
29.90046 120
30.00046 220
30.10046 220
30.20046 870
30.30046 1830
30.40047 10790
30.50047 9550
30.60047 1080
30.70047 350
30.80048 150
30.90048 80
31.00048 90
31.10048 60
31.20049 90
31.30049 50
31.40049 50
31.50049 60
31.60049 60
31.7005  30
31.8005  60
31.9005  50
32.0005  40
32.10051 10
32.20051 30
32.30051 40
32.40051 50
32.50051 40
32.60052 30
32.70052 40
32.80052 30
32.90052 30
33.00053 10
33.10053 30
33.20053 80
33.30053 60
33.40054 30
33.50054 30
33.60054 40
33.70054 40
33.80054 30
33.90055 30
34.00055 40
34.10055 40
34.20055 30
34.30056 30
34.40056 60
34.50056 30
34.60056 40
34.70057 50
34.80057 30
34.90057 50
35.00057 0
35.10057 30
35.20058 20
35.30058 60
35.40058 20
35.50058 20
35.60059 40
35.70059 50
35.80059 50
35.90059 30
36.0006  50
36.1006  60
36.2006  50
36.3006  30
36.4006  0
36.50061 30
36.60061 70
36.70061 70
36.80061 70
36.90062 40
37.00062 70
37.10062 50
37.20062 210
37.30062 410
37.40063 1160
37.50063 7490
37.60063 3550
37.70063 400
37.80064 170
37.90064 80
38.00064 80
38.10064 50
38.20065 20
38.30065 60
38.40065 50
38.50065 50
38.60065 0
38.70066 30
38.80066 50
38.90066 40
39.00066 40
39.10067 70
39.20067 60
39.30067 40
39.40067 40
39.50068 90
39.60068 80
39.70068 40
39.80068 80
39.90068 40
40.00069 30
40.10069 10
40.20069 40
40.30069 30
40.4007  30
40.5007  40
40.6007  70
40.7007  20
40.8007  70
40.90071 30
41.00071 40
41.10071 30
41.20071 40
41.30072 30
41.40072 40
41.50072 10
41.60072 30
41.70073 10
41.80073 40
41.90073 30
42.00073 30
42.10073 0
42.20074 10
42.30074 60
42.40074 50
42.50074 30
42.60075 20
42.70075 90
42.80075 20
42.90075 40
43.00076 60
43.10076 50
43.20076 40
43.30076 160
43.40076 330
43.50077 1530
43.60077 2350
43.70077 1850
43.80077 110
43.90078 20
44.00078 30
44.10078 70
44.20078 20
44.30079 50
44.40079 30
44.50079 30
44.60079 0
44.70079 0
44.8008  50
44.9008  80
45.0008  30
45.1008  40
45.20081 60
45.30081 50
45.40081 20
45.50081 20
45.60081 20
45.70082 50
45.80082 30
45.90082 30
46.00082 10
46.10083 30
46.20083 50
46.30083 70
46.40083 50
46.50084 30
46.60084 10
46.70084 20
46.80084 50
46.90084 60
47.00085 30
47.10085 50
47.20085 50
47.30085 20
47.40086 40
47.50086 50
47.60086 60
47.70086 50
47.80087 50
47.90087 60
48.00087 50
48.10087 70
48.20087 60
48.30088 150
48.40088 80
48.50088 130
48.60088 120
48.70089 180
48.80089 480
48.90089 970
49.00089 8470
49.10089 2640
49.2009  1130
49.3009  290
49.4009  140
49.5009  80
49.60091 50
49.70091 40
49.80091 40
49.90091 50
50.00092 20
50.10092 50
50.20092 30
50.30092 100
50.40092 30
50.50093 10
50.60093 30
50.70093 10
50.80093 40
50.90094 0
51.00094 50
51.10094 10
51.20094 20
51.30095 40
51.40095 0
51.50095 10
51.60095 60
51.70095 10
51.80096 0
51.90096 50
52.00096 20
52.10096 40
52.20097 50
52.30097 30
52.40097 40
52.50097 50
52.60098 30
52.70098 30
52.80098 30
52.90098 50
53.00098 40
53.10099 80
53.20099 40
53.30099 70
53.40099 20
53.501   40
53.601   70
53.701   130
53.801   180
53.901   400
54.00101 3000
54.10101 1620
54.20101 2070
54.30101 210
54.40102 160
54.50102 50
54.60102 50
54.70102 40
54.80103 40
54.90103 30
55.00103 60
55.10103 20
55.20103 0
55.30104 10
55.40104 30
55.50104 60
55.60104 30
55.70105 40
55.80105 20
55.90105 30
56.00105 80
56.10106 0
56.20106 50
56.30106 60
56.40106 40
56.50106 50
56.60107 60
56.70107 20
56.80107 20
56.90107 20
57.00108 10
57.10108 20
57.20108 30
57.30108 0
57.40108 10
57.50109 20
57.60109 50
57.70109 0
57.80109 20
57.9011  30
58.0011  30
58.1011  40
58.2011  20
58.30111 20
58.40111 40
58.50111 60
58.60111 40
58.70111 10
58.80112 70
58.90112 60
59.00112 0
59.10112 10
59.20113 30
59.30113 20
59.40113 10
59.50113 30
59.60114 30
59.70114 40
59.80114 20
59.90114 30
60.00114 20
60.10115 30
60.20115 40
60.30115 20
60.40115 20
60.50116 20
60.60116 30
60.70116 30
60.80116 20
60.90117 60
61.00117 20
61.10117 20
61.20117 10
61.30117 0
61.40118 20
61.50118 10
61.60118 50
61.70118 40
61.80119 50
61.90119 30
62.00119 40
62.10119 20
62.20119 10
62.3012  20
62.4012  30
62.5012  20
62.6012  80
62.70121 50
62.80121 20
62.90121 30
63.00121 70
63.10122 180
63.20122 640
63.30122 1150
63.40122 660
63.50122 240
63.60123 60
63.70123 70
63.80123 30
63.90123 20
64.00124 60
64.10124 40
64.20124 10
64.30124 20
64.40125 30
64.50125 40
64.60125 40
64.70125 50
64.80125 10
64.90126 30
65.00126 50
65.10126 50
65.20126 30
65.30127 0
65.40127 10
65.50127 40
65.60127 30
65.70128 20
65.80128 40
65.90128 30
66.00128 30
66.10129 10
66.20129 20
66.30128 20
66.40129 30
66.5013  50
66.6013  50
66.70129 40
66.8013  60
66.90131 60
67.0013  60
67.1013  30
67.20131 90
67.30132 220
67.40131 280
67.50131 820
67.60132 4700
67.70132 820
67.80132 1870
67.90132 230
68.00133 140
68.10133 70
68.20133 50
68.30133 50
68.40134 40
68.50134 40
68.60134 0
68.70134 10
68.80135 20
68.90135 40
69.00135 60
69.10135 10
69.20135 40
69.30136 30
69.40136 40
69.50136 70
69.60136 20
69.70137 30
69.80137 30
69.90137 20
70.00137 20
70.10138 80
70.20138 30
70.30138 20
70.40138 0
70.50139 70
70.60139 40
70.70139 60
70.80139 70
70.9014  10
71.0014  20
71.10139 40
71.2014  50
71.30141 60
71.40141 70
71.5014  90
71.60141 170
71.70142 570
71.80141 3900
71.90141 500
72.00142 1700
72.10143 170
72.20142 100
72.30142 50
72.40143 40
72.50143 10
72.60143 30
72.70143 10
72.80144 10
72.90144 30
73.00144 10
73.10144 10
73.20145 60
73.30145 10
73.40145 20
73.50145 10
73.60146 20
73.70146 30
73.80146 50
73.90146 30
74.00146 0
74.10147 50
74.20147 60
74.30147 10
74.40147 10
74.50148 10
74.60148 30
74.70148 60
74.80148 30
74.90149 40
75.00149 20
75.10149 60
75.20149 40
75.3015  50
75.4015  70
75.5015  60
75.6015  70
75.70151 120
75.80151 420
75.9015  1830
76.00151 240
76.10152 1070
76.20152 240
76.30151 90
76.40152 80
76.50153 50
76.60152 20
76.70152 20
76.80153 50
76.90154 30
77.00153 20
77.10153 20
77.20154 0
77.30154 40
77.40154 30
77.50154 70
77.60155 10
77.70155 30
77.80155 30
77.90155 50
78.00156 60
78.10156 20
78.20156 30
78.30156 40
78.40157 30
78.50157 0
78.60157 50
78.70157 30
78.80157 30
78.90158 50
79.00158 10
79.10158 30
79.20158 30
79.30159 30
79.40159 50
79.50159 60
79.60159 80
79.7016  30
79.8016  100
79.9016  400
80.0016  70
80.10161 110
80.20161 150
80.30161 40
80.40161 20
80.50162 20
80.60162 20
80.70161 30
80.80162 40
80.90163 50
81.00163 30
81.10162 10
81.20163 30
81.30164 10
81.40163 30
81.50163 10
81.60164 30
81.70164 0
81.80164 20
81.90164 40
82.00165 50
82.10165 10
82.20165 50
82.30165 50
82.40166 10
82.50166 20
82.60166 10
82.70166 20
82.80167 10
82.90167 30
83.00167 0
83.10167 20
83.20168 70
83.30168 50
83.40168 60
83.50168 70
83.60168 70
83.70169 90
83.80169 270
83.90169 1100
84.00169 110
84.1017  510
84.2017  150
84.3017  80
84.4017  60
84.50171 40
84.60171 40
84.70171 40
84.80171 30
84.90172 30
85.00172 10
85.10172 20
85.20172 0
85.30173 20
85.40173 40
85.50172 20
85.60173 20
85.70174 20
85.80173 20
85.90173 20
86.00174 10
86.10175 20
86.20174 20
86.30174 10
86.40175 40
86.50175 30
86.60175 70
86.70175 10
86.80176 40
86.90176 30
87.00176 20
87.10176 30
87.20177 70
87.30177 20
87.40177 20
87.50177 70
87.60178 130
87.70178 160
87.80178 1830
87.90178 760
88.00179 280
88.10179 1250
88.20179 240
88.30179 60
88.40179 90
88.5018  40
88.6018  60
88.7018  50
88.8018  30
88.90181 20
89.00181 20
89.10181 20
89.20181 30
89.30182 30
89.40182 20
89.50182 30
89.60182 20
89.70183 30
89.80183 50
89.90182 40
90.00183 0
90.10184 10
90.20184 50
90.30183 10
90.40184 0
90.50185 0
90.60184 30
90.70184 30
90.80185 40
90.90186 10
91.00185 20
91.10185 20
91.20186 10
91.30186 30
91.40186 20
91.50186 40
91.60187 40
91.70187 30
91.80187 10
91.90187 20
92.00188 50
92.10188 10
92.20188 0
92.30188 30
92.40189 20
92.50189 30
92.60189 10
92.70189 30
92.8019  70
92.9019  20
93.0019  40
93.1019  40
93.2019  10
93.30191 30
93.40191 10
93.50191 0
93.60191 30
93.70192 50
93.80192 30
93.90192 20
94.00192 10
94.10193 20
94.20193 20
94.30193 20
94.40193 40
94.50194 20
94.60194 30
94.70193 20
94.80194 20
94.90195 20
95.00195 40
95.10194 30
95.20195 20
95.30196 30
95.40195 70
95.50195 80
95.60196 70
95.70197 440
95.80196 110
95.90196 50
96.00197 220
96.10197 80
96.20197 50
96.30197 20
96.40198 30
96.50198 50
96.60198 50
96.70198 30
96.80199 20
96.90199 20
97.00199 50
97.10199 20
97.202   10
97.302   40
97.402   40
97.502   60
97.60201 10
97.70201 40
97.80201 50
97.90201 50
98.00201 30
98.10202 30
98.20202 40
98.30202 50
98.40202 20
98.50203 10
98.60203 50
98.70203 80
98.80203 10
98.90204 20
99.00204 30
99.10204 20
99.20204 60
99.30205 60
99.40205 150
99.50204 220
99.60205 580
99.70206 1950
99.80206 320
99.90205 470
100.0021 810
100.1021 260
100.2021 110
100.3021 30
100.4021 60
100.5021 80
100.6021 30
100.7021 20
100.8021 70
100.9021 10
101.0021 50
101.1021 40
101.2021 60
101.3021 60
101.4021 60
101.5021 50
101.6021 20
101.7021 10
101.8021 50
101.9021 40
102.0021 40
102.1021 30
102.2021 30
102.3021 20
102.4021 20
102.5021 60
102.6021 20
102.7021 50
102.8021 50
102.9021 40
103.0021 30
103.1021 20
103.2021 70
103.3021 40
103.4021 80
103.5021 250
103.6021 400
103.7021 1510
103.8021 350
103.9021 170
104.0022 420
104.1022 370
104.2022 110
104.3022 140
104.4022 70
104.5022 40
104.6022 20
104.7022 30
104.8022 20
104.9022 30
105.0022 50
105.1022 30
105.2022 40
105.3022 10
105.4022 40
105.5022 90
105.6022 20
105.7022 0
105.8022 10
105.9022 80
106.0022 0
106.1022 40
106.2022 30
106.3022 30
106.4022 10
106.5022 20
106.6022 50
106.7022 10
106.8022 40
106.9022 30
107.0022 30
107.1022 40
107.2022 30
107.3022 40
107.4022 30
107.5022 60
107.6022 50
107.7022 160
107.8022 600
107.9022 170
108.0022 90
108.1022 210
108.2022 220
108.3022 120
108.4023 50
108.5023 90
108.6023 30
108.7023 50
108.8023 10
108.9023 10
109.0023 40
109.1023 30
109.2023 20
109.3023 30
109.4023 40
109.5023 30
109.6023 40
109.7023 30
109.8023 40
109.9023 10
110.0023 40
110.1023 40
110.2023 70
110.3023 40
110.4023 30
110.5023 30
110.6023 30
110.7023 20
110.8023 20
110.9023 30
111.0023 10
111.1023 20
111.2023 20
111.3023 10
111.4023 30
111.5023 60
111.6023 60
111.7023 90
111.8023 100
111.9023 440
112.0023 650
112.1023 110
112.2023 130
112.3023 130
112.4023 320
112.5023 130
112.6023 40
112.7023 20
112.8024 40
112.9024 30
113.0024 40
113.1024 20
113.2024 10
113.3024 70
113.4024 30
113.5024 30
113.6024 10
113.7024 30
113.8024 60
113.9024 50
114.0024 30
114.1024 30
114.2024 50
114.3024 20
114.4024 30
114.5024 30
114.6024 40
114.7024 40
114.8024 30
114.9024 40
115.0024 50
115.1024 60
115.2024 40
115.3024 0
115.4024 30
115.5024 100
115.6024 30
115.7024 20
115.8024 50
115.9024 120
116.0024 190
116.1024 170
116.2024 930
116.3024 1600
116.4024 370
116.5024 250
116.6024 220
116.7024 590
116.8024 540
116.9025 180
117.0024 130
117.1024 70
117.2025 80
117.3025 50
117.4025 40
117.5025 20
117.6025 70
117.7025 50
117.8025 20
117.9025 30
118.0025 10
118.1025 40
118.2025 50
118.3025 50
118.4025 20
118.5025 40
118.6025 30
118.7025 40
118.8025 40
118.9025 30
119.0025 30
119.1025 20
119.2025 70
119.3025 50
119.4025 10
119.5025 10
119.6025 20
119.7025 40
119.8025 10
119.9025 30
120.0025 50
120.1025 20
120.2025 70
120.3025 20
120.4025 60
120.5025 100
120.6025 180
120.7025 670
120.8025 680
120.9025 270
121.0025 80
121.1025 170
121.2025 310
121.3026 290
121.4025 100
121.5025 60
121.6026 50
121.7026 60
121.8026 40
121.9026 20
122.0026 40
122.1026 30
122.2026 30
122.3026 10
122.4026 60
122.5026 50
122.6026 40
122.7026 20
122.8026 40
122.9026 0
123.0026 40
123.1026 10
123.2026 0
123.3026 30
123.4026 40
123.5026 40
123.6026 20
123.7026 10
123.8026 10
123.9026 0
124.0026 10
124.1026 20
124.2026 50
124.3026 30
124.4026 0
124.5026 10
124.6026 30
124.7026 10
124.8026 10
124.9026 10
125.0026 40
125.1026 50
125.2026 50
125.3026 10
125.4026 30
125.5026 20
125.6026 10
125.7027 30
125.8027 10
125.9026 40
126.0027 40
126.1027 10
126.2027 10
126.3027 70
126.4027 30
126.5027 60
126.6027 60
126.7027 50
126.8027 30
126.9027 70
127.0027 20
127.1027 30
127.2027 10
127.3027 40
127.4027 30
127.5027 40
127.6027 10
127.7027 40
127.8027 70
127.9027 10
128.0027 20
128.1027 60
128.2027 30
128.3027 40
128.4027 50
128.5027 10
128.6027 20
128.7027 40
128.8027 30
128.9027 20
129.0027 50
129.1027 50
129.2027 10
129.3027 30
129.4027 50
129.5027 80
129.6027 60
129.7027 30
129.8027 40
129.9027 50
130.0027 70
130.1028 50
130.2028 160
130.3027 210
130.4028 420
130.5028 410
130.6028 130
130.7028 60
130.8028 40
130.9028 110
131.0028 230
131.1028 150
131.2028 80
131.3028 30
131.4028 50
131.5028 80
131.6028 60
131.7028 40
131.8028 70
131.9028 70
132.0028 30
132.1028 0
132.2028 30
132.3028 40
132.4028 20
132.5028 80
132.6028 50
132.7028 40
132.8028 100
132.9028 30
133.0028 10
133.1028 20
133.2028 60
133.3028 40
133.4028 20
133.5028 40
133.6028 40
133.7028 90
133.8028 30
133.9028 50
134.0028 40
134.1028 10
134.2029 60
134.3028 10
134.4028 30
134.5029 50
134.6028 60
134.7029 40
134.8029 40
134.9029 20
135.0029 10
135.1029 50
135.2029 40
135.3029 40
135.4029 40
135.5029 100
135.6029 120
135.7029 200
135.8029 590
135.9029 410
136.0029 230
136.1029 70
136.2029 120
136.3029 80
136.4029 110
136.5029 280
136.6029 150
136.7029 80
136.8029 90
136.9029 30
137.0029 70
137.1029 70
137.2029 60
137.3029 40
137.4029 30
137.5029 20
137.6029 60
137.7029 70
137.8029 50
137.9029 40
138.0029 50
138.1029 50
138.2029 40
138.3029 20
138.4029 50
138.5029 30
138.6029 30
138.7029 30
138.8029 30
138.903  70
139.003  20
139.103  40
139.203  30
139.303  20
139.403  30
139.503  70
139.603  60
139.703  20
139.803  50
139.903  50
140.003  70
140.103  30
140.203  30
140.303  60
140.403  50
140.503  40
140.603  70
140.703  50
140.803  50
140.903  90
141.003  40
141.103  70
141.203  40
141.303  140
141.403  210
141.503  310
141.603  440
141.703  1210
141.803  2300
141.903  1240
142.003  490
142.103  300
142.203  240
142.303  190
142.403  360
142.503  520
142.603  1000
142.703  800
142.803  270
142.903  220
143.0031 50
143.103  120
143.203  70
143.3031 50
143.403  40
143.5031 80
143.6031 40
143.7031 20
143.8031 50
143.9031 50
144.0031 40
144.1031 70
144.2031 40
144.3031 70
144.4031 50
144.5031 40
144.6031 60
144.7031 50
144.8031 60
144.9031 60
145.0031 40
145.1031 100
145.2031 50
145.3031 90
145.4031 40
145.5031 30
145.6031 60
145.7031 50
145.8031 30
145.9031 60
146.0031 60
146.1031 50
146.2031 40
146.3031 70
146.4031 40
146.5031 100
146.6031 30
146.7031 30
146.8031 40
146.9031 40
147.0031 60
147.1031 80
147.2031 70
147.3031 50
147.4031 90
147.5031 40
147.6031 40
147.7032 80
147.8032 40
147.9032 60
148.0032 30
148.1032 110
148.2032 130
148.3032 120
148.4032 220
148.5032 450
148.6032 630
148.7032 1240
148.8032 830
148.9032 380
149.0032 190
149.1032 140
149.2032 150
149.3032 90
149.4032 110
149.5032 150
149.6032 250
149.7032 580
149.8032 320
149.9032 320
150.0032 200
150.1032 120
150.2032 50
150.3032 40
150.4032 80
150.5032 20
150.6032 50
150.7032 20
150.8032 20
150.9032 70
151.0032 50
151.1032 50
151.2032 50
151.3032 80
151.4032 50
151.5032 50
151.6032 30
151.7032 10
151.8033 40
151.9032 20
152.0033 0
152.1033 30
152.2032 120
152.3033 50
152.4033 20
152.5033 50
152.6033 50
152.7033 10
152.8033 40
152.9033 60
153.0033 30
153.1033 90
153.2033 50
153.3033 80
153.4033 60
153.5033 60
153.6033 50
153.7033 60
153.8033 40
153.9033 50
154.0033 0
154.1033 20
154.2033 20
154.3033 20
154.4033 60
154.5033 50
154.6033 20
154.7033 50
154.8033 30
154.9033 90
155.0033 50